{
  "resourceType": "Bundle",
  "type": "searchset",
  "total": 26,
  "link": [
    {
      "relation": "self",
      "url": "https://api-satusehat-stg.dto.kemkes.go.id/fhir-r4/v1/Composition/?_id=rj-1860f97b-d8bf-4604-9872-0a39785fb111&_include=%2A&subject=P03647103112"
    }
  ],
  "entry": [
    {
      "fullUrl": "https://api-satusehat-stg.dto.kemkes.go.id/fhir-r4/v1/Composition/rj-1860f97b-d8bf-4604-9872-0a39785fb111",
      "resource": {
        "resourceType": "Composition",
        "id": "rj-1860f97b-d8bf-4604-9872-0a39785fb111",
        "identifier": {
          "system": "http://sys-ids.kemkes.go.id/composition/6e3e3a13-8114-44b2-90b3-bbaeeeebf9f0",
          "value": "RJ-20250301-0002"
        },
        "status": "final",
        "type": {
          "coding": [
            {
              "system": "http://loinc.org",
              "code": "88645-7",
              "display": "Outpatient hospital Discharge summary"
            }
          ]
        },
        "category": [
          {
            "coding": [
              {
                "system": "http://loinc.org",
                "code": "LP173421-1",
                "display": "Report"
              }
            ]
          }
        ],
        "subject": {
          "reference": "Patient/P03647103112",
          "display": "Claudia Sintia"
        },
        "encounter": {
          "reference": "Encounter/9939c7ba-305b-4398-b366-6ee9458fe21f"
        },
        "date": "2023-03-01T10:00:00+07:00",
        "author": [
          {
            "reference": "Practitioner/10009880728",
            "display": "dr. Alexander"
          }
        ],
        "attester": [
          {
            "mode": "legal",
            "time": "2023-03-01T10:05:00+07:00",
            "party": {
              "reference": "Practitioner/10009880728",
              "display": "dr. Alexander"
            }
          }
        ],
        "custodian": {
          "reference": "Organization/6e3e3a13-8114-44b2-90b3-bbaeeeebf9f0"
        },
        "title": "Resume Medis Rawat Jalan — Claudia Sintia",
        "section": [
          {
            "title": "Anamnesis",
            "code": {
              "coding": [
                {
                  "system": "http://terminology.kemkes.go.id",
                  "code": "TK000003",
                  "display": "Anamnesis"
                }
              ]
            },
            "entry": [
              {
                "reference": "Observation/obs-keluhan-utama",
                "display": "Keluhan utama"
              }
            ]
          },
          {
            "title": "Pemeriksaan Fisik",
            "code": {
              "coding": [
                {
                  "system": "http://terminology.kemkes.go.id",
                  "code": "TK000007",
                  "display": "Pemeriksaan Fisik"
                }
              ]
            },
            "section": [
              {
                "title": "Tanda Vital",
                "code": {
                  "coding": [
                    {
                      "system": "http://loinc.org",
                      "code": "8716-3",
                      "display": "Vital signs"
                    }
                  ]
                },
                "entry": [
                  {
                    "reference": "Observation/obs-td-sistol",
                    "display": "TD Sistolik"
                  },
                  {
                    "reference": "Observation/obs-td-diast",
                    "display": "TD Diastolik"
                  },
                  {
                    "reference": "Observation/obs-nadi",
                    "display": "Nadi"
                  },
                  {
                    "reference": "Observation/obs-suhu",
                    "display": "Suhu"
                  },
                  {
                    "reference": "Observation/obs-bb",
                    "display": "Berat badan"
                  },
                  {
                    "reference": "Observation/obs-tb",
                    "display": "Tinggi badan"
                  }
                ]
              }
            ]
          },
          {
            "title": "Diagnosis",
            "code": {
              "coding": [
                {
                  "system": "http://terminology.kemkes.go.id",
                  "code": "TK000004",
                  "display": "Diagnosis"
                }
              ]
            },
            "section": [
              {
                "title": "Diagnosis Awal",
                "code": {
                  "coding": [
                    {
                      "system": "http://loinc.org",
                      "code": "42347-5",
                      "display": "Admission diagnosis (narrative)"
                    }
                  ]
                },
                "entry": [
                  {
                    "reference": "Condition/cond-problem",
                    "display": "Kelemahan hemibodi"
                  }
                ]
              },
              {
                "title": "Diagnosis Akhir",
                "code": {
                  "coding": [
                    {
                      "system": "http://loinc.org",
                      "code": "78375-3",
                      "display": "Discharge diagnosis Narrative"
                    }
                  ]
                },
                "entry": [
                  {
                    "reference": "Condition/cond-final",
                    "display": "Stroke iskemik"
                  }
                ]
              }
            ]
          },
          {
            "title": "Tindakan/Prosedur Medis",
            "code": {
              "coding": [
                {
                  "system": "http://terminology.kemkes.go.id",
                  "code": "TK000005",
                  "display": "Tindakan/Prosedur Medis"
                }
              ]
            },
            "entry": [
              {
                "reference": "Procedure/proc-edukasi",
                "display": "Edukasi pasien & keluarga"
              }
            ]
          },
          {
            "title": "Farmasi",
            "code": {
              "coding": [
                {
                  "system": "http://terminology.kemkes.go.id",
                  "code": "TK000013",
                  "display": "Obat"
                }
              ]
            },
            "section": [
              {
                "title": "Obat Saat Kunjungan",
                "code": {
                  "coding": [
                    {
                      "system": "http://loinc.org",
                      "code": "42346-7",
                      "display": "Medications on admission (narrative)"
                    }
                  ]
                },
                "entry": [
                  {
                    "reference": "MedicationRequest/medreq-visit"
                  },
                  {
                    "reference": "MedicationDispense/meddisp-visit"
                  },
                  {
                    "reference": "MedicationAdministration/medadmin-visit"
                  }
                ]
              },
              {
                "title": "Obat Pulang",
                "code": {
                  "coding": [
                    {
                      "system": "http://loinc.org",
                      "code": "75311-1",
                      "display": "Discharge medications Narrative"
                    }
                  ]
                },
                "entry": [
                  {
                    "reference": "MedicationRequest/medreq-discharge"
                  },
                  {
                    "reference": "MedicationDispense/meddisp-discharge"
                  }
                ]
              }
            ]
          },
          {
            "title": "Perencanaan Perawatan",
            "code": {
              "coding": [
                {
                  "system": "http://loinc.org",
                  "code": "18776-5",
                  "display": "Plan of care note"
                }
              ]
            },
            "entry": [
              {
                "reference": "CarePlan/cp-rencana"
              },
              {
                "reference": "CarePlan/cp-instruksi"
              },
              {
                "reference": "Goal/goal-perawatan"
              }
            ]
          },
          {
            "title": "Rencana Tindak Lanjut",
            "code": {
              "coding": [
                {
                  "system": "http://loinc.org",
                  "code": "8653-8",
                  "display": "Hospital Discharge instructions"
                }
              ]
            },
            "entry": [
              {
                "reference": "ServiceRequest/sr-followup"
              }
            ]
          }
        ]
      }
    },
    {
      "fullUrl": "https://api-satusehat-stg.dto.kemkes.go.id/fhir-r4/v1/Patient/P03647103112",
      "resource": {
        "resourceType": "Patient",
        "id": "P03647103112",
        "identifier": [
          {
            "system": "https://fhir.kemkes.go.id/id/nik",
            "value": "P03647103112"
          }
        ],
        "name": [
          {
            "use": "official",
            "text": "Claudia Sintia"
          }
        ],
        "gender": "female"
      }
    },
    {
      "fullUrl": "https://api-satusehat-stg.dto.kemkes.go.id/fhir-r4/v1/Practitioner/10009880728",
      "resource": {
        "resourceType": "Practitioner",
        "id": "10009880728",
        "identifier": [
          {
            "system": "https://fhir.kemkes.go.id/id/nakes-his-number",
            "value": "10009880728"
          },
          {
            "system": "https://fhir.kemkes.go.id/id/nik",
            "use": "official",
            "value": "7209061211900001"
          }
        ],
        "name": [
          {
            "text": "dr. Alexander",
            "use": "official"
          }
        ],
        "gender": "male",
        "birthDate": "1994-01-01",
        "address": [
          {
            "use": "home",
            "line": [
              "Komplek Kesehatan"
            ],
            "city": "Kab. Garut",
            "country": "ID",
            "extension": [
              {
                "url": "https://fhir.kemkes.go.id/r4/StructureDefinition/administrativeCode",
                "extension": [
                  {
                    "url": "province",
                    "valueCode": "32"
                  },
                  {
                    "url": "city",
                    "valueCode": "3205"
                  },
                  {
                    "url": "district",
                    "valueCode": "320519"
                  },
                  {
                    "url": "village",
                    "valueCode": "3205192003"
                  },
                  {
                    "url": "rw",
                    "valueCode": "1"
                  },
                  {
                    "url": "rt",
                    "valueCode": "12"
                  }
                ]
              }
            ]
          }
        ],
        "qualification": [
          {
            "code": {
              "coding": [
                {
                  "system": "https://terminology.kemkes.go.id/v1-0302",
                  "code": "STR-KKI",
                  "display": "Surat Tanda Registrasi Dokter"
                }
              ]
            },
            "identifier": [
              {
                "system": "https://fhir.kemkes.go.id/id/str-kki-number",
                "value": "1234567887654321"
              }
            ]
          }
        ],
        "meta": {
          "lastUpdated": "2024-11-05T09:09:10.336694+00:00",
          "versionId": "MTczMDc5Nzc1MDMzNjY5NDAwMA"
        }
      }
    },
    {
      "fullUrl": "https://api-satusehat-stg.dto.kemkes.go.id/fhir-r4/v1/Organization/6e3e3a13-8114-44b2-90b3-bbaeeeebf9f0",
      "resource": {
        "resourceType": "Organization",
        "id": "6e3e3a13-8114-44b2-90b3-bbaeeeebf9f0",
        "name": "Fasyankes Contoh"
      }
    },
    {
      "fullUrl": "https://api-satusehat-stg.dto.kemkes.go.id/fhir-r4/v1/Location/a482e8d2-870e-45f2-a067-cccf633f0cde",
      "resource": {
        "resourceType": "Location",
        "id": "a482e8d2-870e-45f2-a067-cccf633f0cde",
        "name": "Poliklinik Saraf Rawat Jalan",
        "status": "active",
        "managingOrganization": {
          "reference": "Organization/6e3e3a13-8114-44b2-90b3-bbaeeeebf9f0"
        }
      }
    },
    {
      "fullUrl": "https://api-satusehat-stg.dto.kemkes.go.id/fhir-r4/v1/Encounter/9939c7ba-305b-4398-b366-6ee9458fe21f",
      "resource": {
        "resourceType": "Encounter",
        "id": "9939c7ba-305b-4398-b366-6ee9458fe21f",
        "status": "finished",
        "class": {
          "system": "http://terminology.hl7.org/CodeSystem/v3-ActCode",
          "code": "AMB",
          "display": "ambulatory"
        },
        "subject": {
          "reference": "Patient/P03647103112",
          "display": "Claudia Sintia"
        },
        "serviceProvider": {
          "reference": "Organization/6e3e3a13-8114-44b2-90b3-bbaeeeebf9f0"
        },
        "period": {
          "start": "2023-03-01T09:00:00+07:00",
          "end": "2023-03-01T09:30:00+07:00"
        },
        "participant": [
          {
            "type": [
              {
                "coding": [
                  {
                    "system": "http://terminology.hl7.org/CodeSystem/v3-ParticipationType",
                    "code": "ATND",
                    "display": "attender"
                  }
                ]
              }
            ],
            "individual": {
              "reference": "Practitioner/10009880728",
              "display": "Dr. Alexander"
            }
          }
        ],
        "location": [
          {
            "location": {
              "reference": "Location/a482e8d2-870e-45f2-a067-cccf633f0cde",
              "display": "Poliklinik Saraf Rawat Jalan"
            }
          }
        ]
      }
    },
    {
      "fullUrl": "https://api-satusehat-stg.dto.kemkes.go.id/fhir-r4/v1/Observation/obs-keluhan-utama",
      "resource": {
        "resourceType": "Observation",
        "id": "obs-keluhan-utama",
        "status": "final",
        "category": [
          {
            "coding": [
              {
                "system": "http://terminology.hl7.org/CodeSystem/observation-category",
                "code": "survey"
              }
            ]
          }
        ],
        "code": {
          "coding": [
            {
              "system": "http://snomed.info/sct",
              "code": "162467007",
              "display": "Chief complaint"
            }
          ]
        },
        "subject": {
          "reference": "Patient/P03647103112"
        },
        "encounter": {
          "reference": "Encounter/9939c7ba-305b-4398-b366-6ee9458fe21f"
        },
        "effectiveDateTime": "2023-03-01T09:05:00+07:00",
        "valueString": "Pusing mendadak, baal sisi kanan, berlangsung 1 jam sebelum kunjungan."
      }
    },
    {
      "fullUrl": "https://api-satusehat-stg.dto.kemkes.go.id/fhir-r4/v1/Observation/obs-td-sistol",
      "resource": {
        "resourceType": "Observation",
        "id": "obs-td-sistol",
        "status": "final",
        "category": [
          {
            "coding": [
              {
                "system": "http://terminology.hl7.org/CodeSystem/observation-category",
                "code": "vital-signs"
              }
            ]
          }
        ],
        "code": {
          "coding": [
            {
              "system": "http://loinc.org",
              "code": "8480-6",
              "display": "Systolic blood pressure"
            }
          ]
        },
        "subject": {
          "reference": "Patient/P03647103112"
        },
        "encounter": {
          "reference": "Encounter/9939c7ba-305b-4398-b366-6ee9458fe21f"
        },
        "effectiveDateTime": "2023-03-01T09:10:00+07:00",
        "performer": [
          {
            "reference": "Practitioner/10009880728"
          }
        ],
        "valueQuantity": {
          "value": 138,
          "unit": "mm[Hg]",
          "system": "http://unitsofmeasure.org",
          "code": "mm[Hg]"
        }
      }
    },
    {
      "fullUrl": "https://api-satusehat-stg.dto.kemkes.go.id/fhir-r4/v1/Observation/obs-td-diast",
      "resource": {
        "resourceType": "Observation",
        "id": "obs-td-diast",
        "status": "final",
        "category": [
          {
            "coding": [
              {
                "system": "http://terminology.hl7.org/CodeSystem/observation-category",
                "code": "vital-signs"
              }
            ]
          }
        ],
        "code": {
          "coding": [
            {
              "system": "http://loinc.org",
              "code": "8462-4",
              "display": "Diastolic blood pressure"
            }
          ]
        },
        "subject": {
          "reference": "Patient/P03647103112"
        },
        "encounter": {
          "reference": "Encounter/9939c7ba-305b-4398-b366-6ee9458fe21f"
        },
        "effectiveDateTime": "2023-03-01T09:10:00+07:00",
        "performer": [
          {
            "reference": "Practitioner/10009880728"
          }
        ],
        "valueQuantity": {
          "value": 88,
          "unit": "mm[Hg]",
          "system": "http://unitsofmeasure.org",
          "code": "mm[Hg]"
        }
      }
    },
    {
      "fullUrl": "https://api-satusehat-stg.dto.kemkes.go.id/fhir-r4/v1/Observation/obs-nadi",
      "resource": {
        "resourceType": "Observation",
        "id": "obs-nadi",
        "status": "final",
        "category": [
          {
            "coding": [
              {
                "system": "http://terminology.hl7.org/CodeSystem/observation-category",
                "code": "vital-signs"
              }
            ]
          }
        ],
        "code": {
          "coding": [
            {
              "system": "http://loinc.org",
              "code": "8867-4",
              "display": "Heart rate"
            }
          ]
        },
        "subject": {
          "reference": "Patient/P03647103112"
        },
        "encounter": {
          "reference": "Encounter/9939c7ba-305b-4398-b366-6ee9458fe21f"
        },
        "effectiveDateTime": "2023-03-01T09:10:00+07:00",
        "performer": [
          {
            "reference": "Practitioner/10009880728"
          }
        ],
        "valueQuantity": {
          "value": 84,
          "unit": "/min",
          "system": "http://unitsofmeasure.org",
          "code": "/min"
        }
      }
    },
    {
      "fullUrl": "https://api-satusehat-stg.dto.kemkes.go.id/fhir-r4/v1/Observation/obs-suhu",
      "resource": {
        "resourceType": "Observation",
        "id": "obs-suhu",
        "status": "final",
        "category": [
          {
            "coding": [
              {
                "system": "http://terminology.hl7.org/CodeSystem/observation-category",
                "code": "vital-signs"
              }
            ]
          }
        ],
        "code": {
          "coding": [
            {
              "system": "http://loinc.org",
              "code": "8310-5",
              "display": "Body temperature"
            }
          ]
        },
        "subject": {
          "reference": "Patient/P03647103112"
        },
        "encounter": {
          "reference": "Encounter/9939c7ba-305b-4398-b366-6ee9458fe21f"
        },
        "effectiveDateTime": "2023-03-01T09:10:00+07:00",
        "performer": [
          {
            "reference": "Practitioner/10009880728"
          }
        ],
        "valueQuantity": {
          "value": 36.8,
          "unit": "°C",
          "system": "http://unitsofmeasure.org",
          "code": "Cel"
        }
      }
    },
    {
      "fullUrl": "https://api-satusehat-stg.dto.kemkes.go.id/fhir-r4/v1/Observation/obs-bb",
      "resource": {
        "resourceType": "Observation",
        "id": "obs-bb",
        "status": "final",
        "category": [
          {
            "coding": [
              {
                "system": "http://terminology.hl7.org/CodeSystem/observation-category",
                "code": "vital-signs"
              }
            ]
          }
        ],
        "code": {
          "coding": [
            {
              "system": "http://loinc.org",
              "code": "29463-7",
              "display": "Body weight"
            }
          ]
        },
        "subject": {
          "reference": "Patient/P03647103112"
        },
        "encounter": {
          "reference": "Encounter/9939c7ba-305b-4398-b366-6ee9458fe21f"
        },
        "effectiveDateTime": "2023-03-01T09:10:00+07:00",
        "performer": [
          {
            "reference": "Practitioner/10009880728"
          }
        ],
        "valueQuantity": {
          "value": 74,
          "unit": "kg",
          "system": "http://unitsofmeasure.org",
          "code": "kg"
        }
      }
    },
    {
      "fullUrl": "https://api-satusehat-stg.dto.kemkes.go.id/fhir-r4/v1/Observation/obs-tb",
      "resource": {
        "resourceType": "Observation",
        "id": "obs-tb",
        "status": "final",
        "category": [
          {
            "coding": [
              {
                "system": "http://terminology.hl7.org/CodeSystem/observation-category",
                "code": "vital-signs"
              }
            ]
          }
        ],
        "code": {
          "coding": [
            {
              "system": "http://loinc.org",
              "code": "8302-2",
              "display": "Body height"
            }
          ]
        },
        "subject": {
          "reference": "Patient/P03647103112"
        },
        "encounter": {
          "reference": "Encounter/9939c7ba-305b-4398-b366-6ee9458fe21f"
        },
        "effectiveDateTime": "2023-03-01T09:10:00+07:00",
        "performer": [
          {
            "reference": "Practitioner/10009880728"
          }
        ],
        "valueQuantity": {
          "value": 165,
          "unit": "cm",
          "system": "http://unitsofmeasure.org",
          "code": "cm"
        }
      }
    },
    {
      "fullUrl": "https://api-satusehat-stg.dto.kemkes.go.id/fhir-r4/v1/Condition/cond-problem",
      "resource": {
        "resourceType": "Condition",
        "id": "cond-problem",
        "clinicalStatus": {
          "coding": [
            {
              "system": "http://terminology.hl7.org/CodeSystem/condition-clinical",
              "code": "active"
            }
          ]
        },
        "category": [
          {
            "coding": [
              {
                "system": "http://terminology.hl7.org/CodeSystem/condition-category",
                "code": "problem-list-item"
              }
            ]
          }
        ],
        "code": {
          "coding": [
            {
              "system": "http://snomed.info/sct",
              "code": "20022000",
              "display": "Weakness of one side of body"
            }
          ]
        },
        "subject": {
          "reference": "Patient/P03647103112"
        },
        "encounter": {
          "reference": "Encounter/9939c7ba-305b-4398-b366-6ee9458fe21f"
        },
        "onsetDateTime": "2023-03-01T08:45:00+07:00",
        "recordedDate": "2023-03-01T09:10:00+07:00"
      }
    },
    {
      "fullUrl": "https://api-satusehat-stg.dto.kemkes.go.id/fhir-r4/v1/Condition/cond-final",
      "resource": {
        "resourceType": "Condition",
        "id": "cond-final",
        "clinicalStatus": {
          "coding": [
            {
              "system": "http://terminology.hl7.org/CodeSystem/condition-clinical",
              "code": "active"
            }
          ]
        },
        "category": [
          {
            "coding": [
              {
                "system": "http://terminology.hl7.org/CodeSystem/condition-category",
                "code": "encounter-diagnosis"
              }
            ]
          }
        ],
        "code": {
          "coding": [
            {
              "system": "http://hl7.org/fhir/sid/icd-10",
              "code": "I63.5",
              "display": "Cerebral infarction due unspecified occlusion or stenos cerebrl arteries"
            }
          ]
        },
        "subject": {
          "reference": "Patient/P03647103112"
        },
        "encounter": {
          "reference": "Encounter/9939c7ba-305b-4398-b366-6ee9458fe21f"
        },
        "onsetDateTime": "2023-03-01T08:45:00+07:00"
      }
    },
    {
      "fullUrl": "https://api-satusehat-stg.dto.kemkes.go.id/fhir-r4/v1/Procedure/proc-edukasi",
      "resource": {
        "resourceType": "Procedure",
        "id": "proc-edukasi",
        "status": "completed",
        "code": {
          "coding": [
            {
              "system": "http://loinc.org",
              "code": "34895-3",
              "display": "Education note"
            }
          ],
          "text": "Edukasi pasien & keluarga"
        },
        "subject": {
          "reference": "Patient/P03647103112"
        },
        "performedDateTime": "2023-03-01T09:20:00+07:00",
        "performer": [
          {
            "actor": {
              "reference": "Practitioner/10009880728"
            }
          }
        ]
      }
    },
    {
      "fullUrl": "https://api-satusehat-stg.dto.kemkes.go.id/fhir-r4/v1/Medication/med-clopidogrel",
      "resource": {
        "resourceType": "Medication",
        "id": "med-clopidogrel",
        "status": "active",
        "code": {
          "coding": [
            {
              "system": "http://sys-ids.kemkes.go.id/kfa",
              "code": "93000624",
              "display": "Clopidogrel Bisulfate 75 mg Tablet Salut Selaput (PLADOGREL)"
            }
          ]
        },
        "form": {
          "coding": [
            {
              "system": "http://terminology.kemkes.go.id/CodeSystem/medication-form",
              "code": "BS077",
              "display": "Tablet Salut Selaput"
            }
          ]
        },
        "extension": [
          {
            "url": "https://fhir.kemkes.go.id/r4/StructureDefinition/MedicationType",
            "valueCodeableConcept": {
              "coding": [
                {
                  "system": "http://terminology.kemkes.go.id/CodeSystem/medication-type",
                  "code": "NC",
                  "display": "Non-compound"
                }
              ]
            }
          }
        ],
        "ingredient": [
          {
            "isActive": true,
            "itemCodeableConcept": {
              "coding": [
                {
                  "system": "http://sys-ids.kemkes.go.id/kfa",
                  "code": "91000403",
                  "display": "CLOPIDOGREL"
                }
              ]
            },
            "strength": {
              "numerator": {
                "value": 75,
                "system": "http://unitsofmeasure.org",
                "code": "mg"
              },
              "denominator": {
                "value": 1,
                "system": "http://terminology.hl7.org/CodeSystem/v3-orderableDrugForm",
                "code": "TAB",
                "unit": "Tablet"
              }
            }
          }
        ],
        "manufacturer": {
          "reference": "Organization/6e3e3a13-8114-44b2-90b3-bbaeeeebf9f0"
        }
      }
    },
    {
      "fullUrl": "https://api-satusehat-stg.dto.kemkes.go.id/fhir-r4/v1/MedicationRequest/medreq-visit",
      "resource": {
        "resourceType": "MedicationRequest",
        "id": "medreq-visit",
        "status": "active",
        "intent": "order",
        "medicationReference": {
          "reference": "Medication/med-clopidogrel"
        },
        "subject": {
          "reference": "Patient/P03647103112"
        },
        "encounter": {
          "reference": "Encounter/9939c7ba-305b-4398-b366-6ee9458fe21f"
        }
      }
    },
    {
      "fullUrl": "https://api-satusehat-stg.dto.kemkes.go.id/fhir-r4/v1/MedicationDispense/meddisp-visit",
      "resource": {
        "resourceType": "MedicationDispense",
        "id": "meddisp-visit",
        "status": "completed",
        "medicationReference": {
          "reference": "Medication/med-clopidogrel"
        },
        "subject": {
          "reference": "Patient/P03647103112"
        }
      }
    },
    {
      "fullUrl": "https://api-satusehat-stg.dto.kemkes.go.id/fhir-r4/v1/MedicationAdministration/medadmin-visit",
      "resource": {
        "resourceType": "MedicationAdministration",
        "id": "medadmin-visit",
        "status": "completed",
        "medicationReference": {
          "reference": "Medication/med-clopidogrel"
        },
        "subject": {
          "reference": "Patient/P03647103112"
        },
        "effectiveDateTime": "2023-03-01T09:25:00+07:00"
      }
    },
    {
      "fullUrl": "https://api-satusehat-stg.dto.kemkes.go.id/fhir-r4/v1/MedicationRequest/medreq-discharge",
      "resource": {
        "resourceType": "MedicationRequest",
        "id": "medreq-discharge",
        "status": "active",
        "intent": "order",
        "category": [
          {
            "coding": [
              {
                "system": "http://terminology.hl7.org/CodeSystem/medicationrequest-category",
                "code": "discharge"
              }
            ]
          }
        ],
        "medicationReference": {
          "reference": "Medication/med-clopidogrel"
        },
        "subject": {
          "reference": "Patient/P03647103112"
        }
      }
    },
    {
      "fullUrl": "https://api-satusehat-stg.dto.kemkes.go.id/fhir-r4/v1/MedicationDispense/meddisp-discharge",
      "resource": {
        "resourceType": "MedicationDispense",
        "id": "meddisp-discharge",
        "status": "completed",
        "medicationReference": {
          "reference": "Medication/med-clopidogrel"
        },
        "subject": {
          "reference": "Patient/P03647103112"
        }
      }
    },
    {
      "fullUrl": "https://api-satusehat-stg.dto.kemkes.go.id/fhir-r4/v1/CarePlan/cp-rencana",
      "resource": {
        "resourceType": "CarePlan",
        "id": "cp-rencana",
        "status": "active",
        "intent": "plan",
        "title": "Rencana perawatan rawat jalan",
        "subject": {
          "reference": "Patient/P03647103112"
        }
      }
    },
    {
      "fullUrl": "https://api-satusehat-stg.dto.kemkes.go.id/fhir-r4/v1/CarePlan/cp-instruksi",
      "resource": {
        "resourceType": "CarePlan",
        "id": "cp-instruksi",
        "status": "active",
        "intent": "plan",
        "title": "Instruksi medik/keperawatan",
        "subject": {
          "reference": "Patient/P03647103112"
        }
      }
    },
    {
      "fullUrl": "https://api-satusehat-stg.dto.kemkes.go.id/fhir-r4/v1/Goal/goal-perawatan",
      "resource": {
        "resourceType": "Goal",
        "id": "goal-perawatan",
        "lifecycleStatus": "active",
        "description": {
          "text": "Stabilisasi hemodinamik & pencegahan kejadian berulang"
        },
        "subject": {
          "reference": "Patient/P03647103112"
        }
      }
    },
    {
      "fullUrl": "https://api-satusehat-stg.dto.kemkes.go.id/fhir-r4/v1/ServiceRequest/sr-followup",
      "resource": {
        "resourceType": "ServiceRequest",
        "id": "sr-followup",
        "status": "active",
        "intent": "order",
        "code": {
          "text": "Kontrol rawat jalan 7 hari"
        },
        "subject": {
          "reference": "Patient/P03647103112"
        },
        "occurrenceDateTime": "2023-03-08T09:00:00+07:00"
      }
    }
  ]
}