{
    "resourceType": "Bundle",
    "total": 21,
    "type": "searchset",
    "entry": [
        {
            "fullUrl": "https://api-satusehat-stg.dto.kemkes.go.id/fhir-r4/v1/Composition/d68ad2ce-81ed-49f6-a89a-0bbafa7caf41",
            "resource": {
                "resourceType": "Composition",
                "id": "d68ad2ce-81ed-49f6-a89a-0bbafa7caf41",
                "meta": {
                    "lastUpdated": "2025-08-07T03:19:14.186051+00:00",
                    "versionId": "MTc1NDUzNjc1NDE4NjA1MTAwMA"
                },
                "status": "final",
                "category": [
                    {
                        "coding": [
                            {
                                "system": "http://loinc.org",
                                "code": "LP173421-1",
                                "display": "Report"
                            }
                        ]
                    }
                ],
                "type": {
                    "coding": [
                        {
                            "system": "http://terminology.kemkes.go.id",
                            "code": "TK000001",
                            "display": "Data Registrasi Jantung"
                        }
                    ]
                },
                "title": "Data Registrasi Jantung",
                "date": "2024-06-04T10:24:47+00:00",
                "subject": {
                    "reference": "Patient/P03647103112"
                },
                "author": [
                    {
                        "reference": "Practitioner/10009880728"
                    }
                ],
                "custodian": {
                    "reference": "Organization/6e3e3a13-8114-44b2-90b3-bbaeeeebf9f0"
                },
                "encounter": {
                    "reference": "Encounter/654e2d68-d24e-4ab4-b51e-9eb9bd85192e"
                },
                "identifier": {
                    "system": "http://sys-ids.kemkes.go.id/creator",
                    "value": "6e3e3a13-8114-44b2-90b3-bbaeeeebf9f0"
                },
                "section": [
                    {
                        "title": "Episode Perawatan",
                        "code": {
                            "coding": [
                                {
                                    "system": "http://terminology.kemkes.go.id",
                                    "code": "TK000002",
                                    "display": "Episode Perawatan"
                                }
                            ]
                        },
                        "entry": [
                            {
                                "reference": "Condition/1a08a280-b968-46e9-bf48-beae115c9ad4"
                            }
                        ]
                    },
                    {
                        "title": "Anamnesis",
                        "code": {
                            "coding": [
                                {
                                    "system": "http://terminology.kemkes.go.id",
                                    "code": "TK000003",
                                    "display": "Anamnesis"
                                }
                            ]
                        },
                        "section": [
                            {
                                "title": "Keluhan Utama",
                                "code": {
                                    "coding": [
                                        {
                                            "system": "http://loinc.org",
                                            "code": "10154-3",
                                            "display": "Chief complaint Narrative - Reported"
                                        }
                                    ]
                                },
                                "entry": [
                                    {
                                        "reference": "Condition/1a08a280-b968-46e9-bf48-beae115c9ad4"
                                    }
                                ]
                            },
                            {
                                "title": "Keluhan Penyerta",
                                "code": {
                                    "coding": [
                                        {
                                            "system": "http://loinc.org",
                                            "code": "11450-4",
                                            "display": "Problem list - Reported"
                                        }
                                    ]
                                },
                                "entry": [
                                    {
                                        "reference": "Condition/3b82b38f-20a9-4253-a7a7-0673fe71d56a"
                                    }
                                ]
                            },
                            {
                                "title": "Riwayat Penyakit Pribadi Sekarang",
                                "code": {
                                    "coding": [
                                        {
                                            "system": "http://loinc.org",
                                            "code": "10164-2",
                                            "display": "History of Present illness Narrative"
                                        }
                                    ]
                                },
                                "entry": [
                                    {
                                        "reference": "Condition/a3e52e62-10b9-4d54-8b2b-fd6585737972"
                                    }
                                ]
                            },
                            {
                                "title": "Riwayat Alergi",
                                "code": {
                                    "coding": [
                                        {
                                            "system": "http://loinc.org",
                                            "code": "48765-2",
                                            "display": "Allergies"
                                        }
                                    ]
                                },
                                "entry": [
                                    {
                                        "reference": "AllergyIntolerance/d4e02558-ef08-4698-bf38-ba048d1251ac"
                                    }
                                ]
                            }
                        ]
                    },
                    {
                        "title": "Pemeriksaan Fisik",
                        "code": {
                            "coding": [
                                {
                                    "system": "http://terminology.kemkes.go.id",
                                    "code": "TK000007",
                                    "display": "Pemeriksaan Fisik"
                                }
                            ]
                        },
                        "section": [
                            {
                                "title": "Tanda Vital",
                                "code": {
                                    "coding": [
                                        {
                                            "system": "http://loinc.org",
                                            "code": "8716-3",
                                            "display": "Vital signs"
                                        }
                                    ]
                                },
                                "entry": [
                                    {
                                        "reference": "Observation/7832ec54-9064-44f2-8719-d1cb531c849f"
                                    },
                                    {
                                        "reference": "Observation/707b2bf0-3971-4497-93fa-00e89381fbe5"
                                    },
                                    {
                                        "reference": "Observation/0e70d87b-8e78-4cc0-99bf-48cc8caa01f4"
                                    },
                                    {
                                        "reference": "Observation/231f1eb5-f9a5-4cbe-bb58-6295f990b0f9"
                                    },
                                    {
                                        "reference": "Observation/1bdc8c93-e2d7-4e58-ba04-b0b8e32adb7c"
                                    },
                                    {
                                        "reference": "Observation/dc774b86-a49f-49f0-a55f-125f5c603ede"
                                    }
                                ]
                            }
                        ]
                    },
                    {
                        "title": "Pemeriksaan Penunjang",
                        "code": {
                            "coding": [
                                {
                                    "system": "http://terminology.kemkes.go.id",
                                    "code": "TK000009",
                                    "display": "Hasil Pemeriksaan Penunjang"
                                }
                            ]
                        },
                        "section": [
                            {
                                "title": "Hasil Pemeriksaan Laboratorium",
                                "code": {
                                    "coding": [
                                        {
                                            "system": "http://loinc.org",
                                            "code": "11502-2",
                                            "display": "Laboratory report"
                                        }
                                    ]
                                },
                                "entry": [
                                    {
                                        "reference": "Procedure/a5c0a8b2-e32e-43e5-bdaf-ac34de8f11dc"
                                    },
                                    {
                                        "reference": "Specimen/951074fd-27a1-4444-9454-beeb4557bf88"
                                    },
                                    {
                                        "reference": "Observation/645a7cf0-03e2-43e3-8be0-c9f1f1ad584f"
                                    },
                                    {
                                        "reference": "DiagnosticReport/85a2f6d0-5c81-4c7b-b432-5ff962ec43fb"
                                    }
                                ]
                            }
                        ]
                    },
                    {
                        "title": "Diagnosis",
                        "code": {
                            "coding": [
                                {
                                    "system": "http://terminology.kemkes.go.id",
                                    "code": "TK000004",
                                    "display": "Diagnosis"
                                }
                            ]
                        },
                        "section": [
                            {
                                "title": "Diagnosis Akhir",
                                "code": {
                                    "coding": [
                                        {
                                            "system": "http://loinc.org",
                                            "code": "78375-3",
                                            "display": "Discharge diagnosis Narrative"
                                        }
                                    ]
                                },
                                "entry": [
                                    {
                                        "reference": "ClinicalImpression/e5412363-b8f7-42db-9f45-5de4ee7f7936"
                                    },
                                    {
                                        "reference": "Condition/1a08a280-b968-46e9-bf48-beae115c9ad4"
                                    },
                                    {
                                        "reference": "Condition/3b82b38f-20a9-4253-a7a7-0673fe71d56a"
                                    }
                                ]
                            }
                        ]
                    },
                    {
                        "title": "Tindakan/Prosedur Medis",
                        "code": {
                            "coding": [
                                {
                                    "system": "http://terminology.kemkes.go.id",
                                    "code": "TK000005",
                                    "display": "Tindakan/Prosedur Medis"
                                }
                            ]
                        },
                        "entry": [
                            {
                                "reference": "Procedure/a5c0a8b2-e32e-43e5-bdaf-ac34de8f11dc"
                            },
                            {
                                "reference": "Observation/8af8ae78-5526-4654-89ff-ec9dfcd24041"
                            }
                        ]
                    },
                    {
                        "title": "Obat",
                        "code": {
                            "coding": [
                                {
                                    "system": "http://terminology.kemkes.go.id",
                                    "code": "TK000013",
                                    "display": "Obat"
                                }
                            ]
                        },
                        "section": [
                            {
                                "title": "Obat Pulang",
                                "code": {
                                    "coding": [
                                        {
                                            "system": "http://loinc.org",
                                            "code": "75311-1",
                                            "display": "Discharge medications Narrative"
                                        }
                                    ]
                                },
                                "entry": [
                                    {
                                        "reference": "MedicationRequest/7fc550c9-7211-4752-aa36-35e405f73609"
                                    },
                                    {
                                        "reference": "MedicationDispense/6b7d5850-b14a-4c77-80ae-31ed38e3206e"
                                    }
                                ]
                            }
                        ]
                    },
                    {
                        "title": "Kondisi Saat Meninggalkan Rumah Sakit",
                        "code": {
                            "coding": [
                                {
                                    "system": "http://loinc.org",
                                    "code": "10184-0",
                                    "display": "Hospital discharge physical findings Narrative"
                                }
                            ]
                        },
                        "entry": [
                            {
                                "reference": "Condition/240a0374-8690-43cb-927d-08d5a063e394"
                            }
                        ]
                    },
                    {
                        "title": "Rencana Tindak Lanjut",
                        "code": {
                            "coding": [
                                {
                                    "system": "http://loinc.org",
                                    "code": "8653-8",
                                    "display": "Hospital Discharge instructions"
                                }
                            ]
                        },
                        "entry": [
                            {
                                "reference": "ServiceRequest/9ecbf409-9234-4dea-852e-4de22ed93ca9"
                            }
                        ]
                    },
                    {
                        "title": "Perjalanan Kunjungan Pasien",
                        "code": {
                            "coding": [
                                {
                                    "system": "http://loinc.org",
                                    "code": "8648-8",
                                    "display": "Hospital course Narrative"
                                }
                            ]
                        },
                        "text": {
                            "status": "additional",
                            "div": "Pasien Claudia Sintia tidak baik baik saja."
                        }
                    }
                ]
            }
        },
        {
            "fullUrl": "https://api-satusehat-stg.dto.kemkes.go.id/fhir-r4/v1/Condition/1a08a280-b968-46e9-bf48-beae115c9ad4",
            "resource": {
                "resourceType": "Condition",
                "id": "1a08a280-b968-46e9-bf48-beae115c9ad4",
                "meta": {
                    "lastUpdated": "2025-08-06T08:44:43.968421+00:00",
                    "versionId": "MTc1NDQ2OTg4Mzk2ODQyMTAwMA"
                },
                "identifier": [],
                "clinicalStatus": {
                    "coding": [
                        {
                            "system": "http://terminology.hl7.org/CodeSystem/condition-clinical",
                            "code": "active",
                            "display": "Active"
                        }
                    ]
                },
                "category": [
                    {
                        "coding": [
                            {
                                "system": "http://terminology.hl7.org/CodeSystem/condition-category",
                                "code": "problem-list-item",
                                "display": "Problem List Item"
                            }
                        ]
                    }
                ],
                "code": {
                    "coding": [
                        {
                            "system": "http://snomed.info/sct",
                            "code": "80313002",
                            "display": "Palpitations"
                        }
                    ]
                },
                "subject": {
                    "reference": "Patient/P03647103112",
                    "display": "Claudia Sintia"
                },
                "encounter": {
                    "reference": "Encounter/654e2d68-d24e-4ab4-b51e-9eb9bd85192e"
                },
                "onsetDateTime": "2024-03-14T01:10:00+00:00",
                "recordedDate": "2024-03-14T02:16:00+00:00"
            }
        },
        {
            "fullUrl": "https://api-satusehat-stg.dto.kemkes.go.id/fhir-r4/v1/Condition/3b82b38f-20a9-4253-a7a7-0673fe71d56a",
            "resource": {
                "resourceType": "Condition",
                "id": "3b82b38f-20a9-4253-a7a7-0673fe71d56a",
                "meta": {
                    "lastUpdated": "2025-08-07T01:45:03.663304+00:00",
                    "versionId": "MTc1NDUzMTEwMzY2MzMwNDAwMA"
                },
                "identifier": [],
                "clinicalStatus": {
                    "coding": [
                        {
                            "system": "http://terminology.hl7.org/CodeSystem/condition-clinical",
                            "code": "active",
                            "display": "Active"
                        }
                    ]
                },
                "category": [
                    {
                        "coding": [
                            {
                                "system": "http://terminology.hl7.org/CodeSystem/condition-category",
                                "code": "problem-list-item",
                                "display": "Problem List Item"
                            }
                        ]
                    }
                ],
                "code": {
                    "coding": [
                        {
                            "system": "http://snomed.info/sct",
                            "code": "194828000",
                            "display": "Angina pectoris"
                        }
                    ]
                },
                "subject": {
                    "reference": "Patient/P03647103112",
                    "display": "Claudia Sintia"
                },
                "encounter": {
                    "reference": "Encounter/654e2d68-d24e-4ab4-b51e-9eb9bd85192e"
                },
                "onsetDateTime": "2024-03-14T01:10:00+00:00",
                "recordedDate": "2024-03-14T02:16:00+00:00"
            }
        },
        {
            "fullUrl": "https://api-satusehat-stg.dto.kemkes.go.id/fhir-r4/v1/Condition/a3e52e62-10b9-4d54-8b2b-fd6585737972",
            "resource": {
                "resourceType": "Condition",
                "id": "a3e52e62-10b9-4d54-8b2b-fd6585737972",
                "meta": {
                    "lastUpdated": "2025-08-06T08:36:45.928737+00:00",
                    "versionId": "MTc1NDQ2OTQwNTkyODczNzAwMA"
                },
                "identifier": [],
                "clinicalStatus": {
                    "coding": [
                        {
                            "system": "http://terminology.hl7.org/CodeSystem/condition-clinical",
                            "code": "active",
                            "display": "Active"
                        }
                    ]
                },
                "category": [
                    {
                        "coding": [
                            {
                                "system": "http://terminology.hl7.org/CodeSystem/condition-category",
                                "code": "problem-list-item",
                                "display": "Problem List Item"
                            }
                        ]
                    }
                ],
                "code": {
                    "coding": [
                        {
                            "system": "http://snomed.info/sct",
                            "code": "161527007",
                            "display": "H/O: asthma"
                        }
                    ]
                },
                "subject": {
                    "reference": "Patient/P03647103112",
                    "display": "Claudia Sintia"
                },
                "encounter": {
                    "reference": "Encounter/654e2d68-d24e-4ab4-b51e-9eb9bd85192e"
                },
                "recordedDate": "2024-03-14T02:17:00+00:00"
            }
        },
        {
            "fullUrl": "https://api-satusehat-stg.dto.kemkes.go.id/fhir-r4/v1/Condition/240a0374-8690-43cb-927d-08d5a063e394",
            "resource": {
                "resourceType": "Condition",
                "id": "240a0374-8690-43cb-927d-08d5a063e394",
                "meta": {
                    "lastUpdated": "2025-08-07T02:00:42.004137+00:00",
                    "versionId": "MTc1NDUzMjA0MjAwNDEzNzAwMA"
                },
                "identifier": [],
                "clinicalStatus": {
                    "coding": [
                        {
                            "system": "http://terminology.hl7.org/CodeSystem/condition-clinical",
                            "code": "active",
                            "display": "Active"
                        }
                    ]
                },
                "category": [
                    {
                        "coding": [
                            {
                                "system": "http://terminology.hl7.org/CodeSystem/condition-category",
                                "code": "problem-list-item",
                                "display": "Problem List Item"
                            }
                        ]
                    }
                ],
                "code": {
                    "coding": [
                        {
                            "system": "http://snomed.info/sct",
                            "code": "359746009",
                            "display": "Patient's condition stable"
                        }
                    ]
                },
                "subject": {
                    "reference": "Patient/P03647103112",
                    "display": "Claudia Sintia"
                },
                "encounter": {
                    "reference": "Encounter/654e2d68-d24e-4ab4-b51e-9eb9bd85192e"
                },
                "recordedDate": "2024-03-14T03:16:00+00:00"
            }
        },
        {
            "fullUrl": "https://api-satusehat-stg.dto.kemkes.go.id/fhir-r4/v1/AllergyIntolerance/d4e02558-ef08-4698-bf38-ba048d1251ac",
            "resource": {
                "resourceType": "AllergyIntolerance",
                "id": "d4e02558-ef08-4698-bf38-ba048d1251ac",
                "meta": {
                    "lastUpdated": "2025-08-06T08:38:05.689961+00:00",
                    "versionId": "MTc1NDQ2OTQ4NTY4OTk2MTAwMA"
                },
                "identifier": [
                    {
                        "system": "http://sys-ids.kemkes.go.id/allergy/6e3e3a13-8114-44b2-90b3-bbaeeeebf9f0",
                        "use": "official",
                        "value": "98769567"
                    }
                ],
                "clinicalStatus": {
                    "coding": [
                        {
                            "system": "http://terminology.hl7.org/CodeSystem/allergyintolerance-clinical",
                            "code": "active",
                            "display": "Active"
                        }
                    ]
                },
                "verificationStatus": {
                    "coding": [
                        {
                            "system": "http://terminology.hl7.org/CodeSystem/allergyintolerance-verification",
                            "code": "confirmed",
                            "display": "Confirmed"
                        }
                    ]
                },
                "category": [
                    "food"
                ],
                "code": {
                    "coding": [
                        {
                            "system": "http://snomed.info/sct",
                            "code": "91930004",
                            "display": "Allergy to eggs"
                        }
                    ],
                    "text": "Alergi Telur"
                },
                "patient": {
                    "reference": "Patient/P03647103112",
                    "display": "Claudia Sintia"
                },
                "encounter": {
                    "reference": "Encounter/654e2d68-d24e-4ab4-b51e-9eb9bd85192e",
                    "display": "Kunjungan Claudia Sintia di hari Kamis, 14 Maret 2024"
                },
                "recordedDate": "2024-03-14T02:19:00+00:00",
                "recorder": {
                    "reference": "Practitioner/10009880728"
                }
            }
        },
        {
            "fullUrl": "https://api-satusehat-stg.dto.kemkes.go.id/fhir-r4/v1/Observation/7832ec54-9064-44f2-8719-d1cb531c849f",
            "resource": {
                "resourceType": "Observation",
                "id": "7832ec54-9064-44f2-8719-d1cb531c849f",
                "meta": {
                    "lastUpdated": "2025-08-06T08:46:42.855820+00:00",
                    "versionId": "MTc1NDQ3MDAwMjg1NTgyMDAwMA"
                },
                "identifier": [],
                "status": "final",
                "category": [
                    {
                        "coding": [
                            {
                                "system": "http://terminology.hl7.org/CodeSystem/observation-category",
                                "code": "vital-signs",
                                "display": "Vital Signs"
                            }
                        ]
                    }
                ],
                "code": {
                    "coding": [
                        {
                            "system": "http://loinc.org",
                            "code": "8480-6",
                            "display": "Systolic blood pressure"
                        }
                    ]
                },
                "subject": {
                    "reference": "Patient/P03647103112"
                },
                "encounter": {
                    "reference": "Encounter/654e2d68-d24e-4ab4-b51e-9eb9bd85192e",
                    "display": "Pemeriksaan Fisik Tekanan Darah Sistolik Jane Smith di hari Kamis, 14 Maret 2024"
                },
                "effectiveDateTime": "2024-03-14T02:24:00+00:00",
                "issued": "2024-03-14T02:24:00+00:00",
                "performer": [
                    {
                        "reference": "Practitioner/10009880728"
                    }
                ],
                "bodySite": {
                    "coding": [
                        {
                            "system": "http://snomed.info/sct",
                            "code": "368209003",
                            "display": "Right arm"
                        }
                    ]
                },
                "interpretation": [
                    {
                        "coding": [
                            {
                                "system": "http://terminology.hl7.org/CodeSystem/v3-ObservationInterpretation",
                                "code": "H",
                                "display": "High"
                            }
                        ],
                        "text": "Di atas nilai referensi"
                    }
                ],
                "valueQuantity": {
                    "value": 182,
                    "unit": "mm[Hg]",
                    "system": "http://unitsofmeasure.org",
                    "code": "mm[Hg]"
                }
            }
        },
        {
            "fullUrl": "https://api-satusehat-stg.dto.kemkes.go.id/fhir-r4/v1/Observation/707b2bf0-3971-4497-93fa-00e89381fbe5",
            "resource": {
                "resourceType": "Observation",
                "id": "707b2bf0-3971-4497-93fa-00e89381fbe5",
                "meta": {
                    "lastUpdated": "2025-08-06T08:46:46.909187+00:00",
                    "versionId": "MTc1NDQ3MDAwNjkwOTE4NzAwMA"
                },
                "identifier": [],
                "status": "final",
                "category": [
                    {
                        "coding": [
                            {
                                "system": "http://terminology.hl7.org/CodeSystem/observation-category",
                                "code": "vital-signs",
                                "display": "Vital Signs"
                            }
                        ]
                    }
                ],
                "code": {
                    "coding": [
                        {
                            "system": "http://loinc.org",
                            "code": "8462-4",
                            "display": "Diastolic blood pressure"
                        }
                    ]
                },
                "subject": {
                    "reference": "Patient/P03647103112"
                },
                "encounter": {
                    "reference": "Encounter/654e2d68-d24e-4ab4-b51e-9eb9bd85192e",
                    "display": "Pemeriksaan Fisik Tekanan Darah Diastolik Jane Smith di hari Kamis, 14 Maret 2024"
                },
                "effectiveDateTime": "2024-03-14T02:24:00+00:00",
                "issued": "2024-03-14T02:24:00+00:00",
                "performer": [
                    {
                        "reference": "Practitioner/10009880728"
                    }
                ],
                "interpretation": [
                    {
                        "coding": [
                            {
                                "system": "http://terminology.hl7.org/CodeSystem/v3-ObservationInterpretation",
                                "code": "H",
                                "display": "High"
                            }
                        ],
                        "text": "Di atas nilai referensi"
                    }
                ],
                "valueQuantity": {
                    "value": 115,
                    "unit": "mm[Hg]",
                    "system": "http://unitsofmeasure.org",
                    "code": "mm[Hg]"
                }
            }
        },
        {
            "fullUrl": "https://api-satusehat-stg.dto.kemkes.go.id/fhir-r4/v1/Observation/0e70d87b-8e78-4cc0-99bf-48cc8caa01f4",
            "resource": {
                "resourceType": "Observation",
                "id": "0e70d87b-8e78-4cc0-99bf-48cc8caa01f4",
                "meta": {
                    "lastUpdated": "2025-08-06T08:46:53.244060+00:00",
                    "versionId": "MTc1NDQ3MDAxMzI0NDA2MDAwMA"
                },
                "identifier": [],
                "status": "final",
                "category": [
                    {
                        "coding": [
                            {
                                "system": "http://terminology.hl7.org/CodeSystem/observation-category",
                                "code": "vital-signs",
                                "display": "Vital Signs"
                            }
                        ]
                    }
                ],
                "code": {
                    "coding": [
                        {
                            "system": "http://loinc.org",
                            "code": "8310-5",
                            "display": "Body temperature"
                        }
                    ]
                },
                "subject": {
                    "reference": "Patient/P03647103112"
                },
                "encounter": {
                    "reference": "Encounter/654e2d68-d24e-4ab4-b51e-9eb9bd85192e",
                    "display": "Pemeriksaan Fisik Suhu Jane Smith di hari Kamis, 14 Maret 2024"
                },
                "effectiveDateTime": "2024-03-14T02:25:00+00:00",
                "issued": "2024-03-14T02:25:00+00:00",
                "performer": [
                    {
                        "reference": "Practitioner/10009880728"
                    }
                ],
                "interpretation": [
                    {
                        "coding": [
                            {
                                "system": "http://terminology.hl7.org/CodeSystem/v3-ObservationInterpretation",
                                "code": "H",
                                "display": "High"
                            }
                        ],
                        "text": "Di atas nilai referensi"
                    }
                ],
                "valueQuantity": {
                    "value": 37.5,
                    "unit": "C",
                    "system": "http://unitsofmeasure.org",
                    "code": "Cel"
                }
            }
        },
        {
            "fullUrl": "https://api-satusehat-stg.dto.kemkes.go.id/fhir-r4/v1/Observation/231f1eb5-f9a5-4cbe-bb58-6295f990b0f9",
            "resource": {
                "resourceType": "Observation",
                "id": "231f1eb5-f9a5-4cbe-bb58-6295f990b0f9",
                "meta": {
                    "lastUpdated": "2025-08-06T08:46:49.766044+00:00",
                    "versionId": "MTc1NDQ3MDAwOTc2NjA0NDAwMA"
                },
                "identifier": [],
                "status": "final",
                "category": [
                    {
                        "coding": [
                            {
                                "system": "http://terminology.hl7.org/CodeSystem/observation-category",
                                "code": "vital-signs",
                                "display": "Vital Signs"
                            }
                        ]
                    }
                ],
                "code": {
                    "coding": [
                        {
                            "system": "http://loinc.org",
                            "code": "8867-4",
                            "display": "Heart rate"
                        }
                    ]
                },
                "subject": {
                    "reference": "Patient/P03647103112"
                },
                "encounter": {
                    "reference": "Encounter/654e2d68-d24e-4ab4-b51e-9eb9bd85192e",
                    "display": "Pemeriksaan Fisik Nadi Jane Smith di hari Kamis, 14 Maret 2024"
                },
                "effectiveDateTime": "2024-03-14T02:22:00+00:00",
                "issued": "2024-03-14T02:22:00+00:00",
                "performer": [
                    {
                        "reference": "Practitioner/10009880728"
                    }
                ],
                "valueQuantity": {
                    "value": 80,
                    "unit": "{beats}/minute",
                    "system": "http://unitsofmeasure.org",
                    "code": "/min"
                }
            }
        },
        {
            "fullUrl": "https://api-satusehat-stg.dto.kemkes.go.id/fhir-r4/v1/Observation/1bdc8c93-e2d7-4e58-ba04-b0b8e32adb7c",
            "resource": {
                "resourceType": "Observation",
                "id": "1bdc8c93-e2d7-4e58-ba04-b0b8e32adb7c",
                "meta": {
                    "lastUpdated": "2025-08-06T08:47:15.706206+00:00",
                    "versionId": "MTc1NDQ3MDAzNTcwNjIwNjAwMA"
                },
                "identifier": [],
                "status": "final",
                "category": [
                    {
                        "coding": [
                            {
                                "system": "http://terminology.hl7.org/CodeSystem/observation-category",
                                "code": "vital-signs",
                                "display": "Vital Signs"
                            }
                        ]
                    }
                ],
                "code": {
                    "coding": [
                        {
                            "system": "http://loinc.org",
                            "code": "29463-7",
                            "display": "Body weight"
                        }
                    ]
                },
                "subject": {
                    "reference": "Patient/P03647103112"
                },
                "encounter": {
                    "reference": "Encounter/654e2d68-d24e-4ab4-b51e-9eb9bd85192e",
                    "display": "Pemeriksaan Antropometri Jane Smith di hari Kamis, 14 Maret 2024"
                },
                "effectiveDateTime": "2024-03-14T02:26:00+00:00",
                "issued": "2024-03-14T02:26:00+00:00",
                "performer": [
                    {
                        "reference": "Practitioner/10009880728"
                    }
                ],
                "valueQuantity": {
                    "value": 75,
                    "unit": "kg",
                    "system": "http://unitsofmeasure.org",
                    "code": "kg"
                }
            }
        },
        {
            "fullUrl": "https://api-satusehat-stg.dto.kemkes.go.id/fhir-r4/v1/Observation/dc774b86-a49f-49f0-a55f-125f5c603ede",
            "resource": {
                "resourceType": "Observation",
                "id": "dc774b86-a49f-49f0-a55f-125f5c603ede",
                "meta": {
                    "lastUpdated": "2025-08-06T08:47:23.826858+00:00",
                    "versionId": "MTc1NDQ3MDA0MzgyNjg1ODAwMA"
                },
                "identifier": [],
                "status": "final",
                "category": [
                    {
                        "coding": [
                            {
                                "system": "http://terminology.hl7.org/CodeSystem/observation-category",
                                "code": "vital-signs",
                                "display": "Vital Signs"
                            }
                        ]
                    }
                ],
                "code": {
                    "coding": [
                        {
                            "system": "http://loinc.org",
                            "code": "8302-2",
                            "display": "Body height"
                        }
                    ]
                },
                "subject": {
                    "reference": "Patient/P03647103112"
                },
                "encounter": {
                    "reference": "Encounter/654e2d68-d24e-4ab4-b51e-9eb9bd85192e",
                    "display": "Pemeriksaan Antropometri Jane Smith di hari Kamis, 14 Maret 2024"
                },
                "effectiveDateTime": "2024-03-14T02:27:00+00:00",
                "issued": "2024-03-14T02:27:00+00:00",
                "performer": [
                    {
                        "reference": "Practitioner/10009880728"
                    }
                ],
                "valueQuantity": {
                    "value": 160,
                    "unit": "cm",
                    "system": "http://unitsofmeasure.org",
                    "code": "cm"
                }
            }
        },
        {
            "fullUrl": "https://api-satusehat-stg.dto.kemkes.go.id/fhir-r4/v1/Observation/8af8ae78-5526-4654-89ff-ec9dfcd24041",
            "resource": {
                "resourceType": "Observation",
                "id": "8af8ae78-5526-4654-89ff-ec9dfcd24041",
                "meta": {
                    "lastUpdated": "2025-08-06T08:53:55.179584+00:00",
                    "versionId": "MTc1NDQ3MDQzNTE3OTU4NDAwMA"
                },
                "identifier": [],
                "status": "final",
                "category": [
                    {
                        "coding": [
                            {
                                "system": "http://terminology.hl7.org/CodeSystem/observation-category",
                                "code": "exam",
                                "display": "Exam"
                            }
                        ]
                    }
                ],
                "code": {
                    "coding": [
                        {
                            "system": "http://loinc.org",
                            "code": "34534-8",
                            "display": "12 lead EKG panel"
                        }
                    ]
                },
                "subject": {
                    "reference": "Patient/P03647103112"
                },
                "encounter": {
                    "reference": "Encounter/654e2d68-d24e-4ab4-b51e-9eb9bd85192e"
                },
                "effectiveDateTime": "2024-03-14T02:50:00+00:00",
                "issued": "2024-03-14T03:05:00+00:00",
                "performer": [
                    {
                        "reference": "Practitioner/10009880728"
                    }
                ],
                "valueString": "Hasil pemeriksaan EKG menunjukkan adanya gangguan pada jantung",
                "component": [
                    {
                        "code": {
                            "coding": [
                                {
                                    "system": "http://snomed.info/sct",
                                    "code": "426783006",
                                    "display": "Electrocardiogram: sinus rhythm"
                                }
                            ]
                        },
                        "valueBoolean": false
                    },
                    {
                        "code": {
                            "coding": [
                                {
                                    "system": "http://snomed.info/sct",
                                    "code": "164889003",
                                    "display": "Electrocardiographic atrial fibrillation"
                                }
                            ]
                        },
                        "valueBoolean": true
                    },
                    {
                        "code": {
                            "coding": [
                                {
                                    "system": "http://snomed.info/sct",
                                    "code": "76388001",
                                    "display": "ST segment elevation"
                                }
                            ]
                        },
                        "valueBoolean": true
                    },
                    {
                        "code": {
                            "coding": [
                                {
                                    "system": "http://snomed.info/sct",
                                    "code": "26141007",
                                    "display": "ST segment depression"
                                }
                            ]
                        },
                        "valueBoolean": true
                    },
                    {
                        "code": {
                            "coding": [
                                {
                                    "system": "http://snomed.info/sct",
                                    "code": "59931005",
                                    "display": "Inverted T wave"
                                }
                            ]
                        },
                        "valueBoolean": true
                    }
                ]
            }
        },
        {
            "fullUrl": "https://api-satusehat-stg.dto.kemkes.go.id/fhir-r4/v1/Observation/645a7cf0-03e2-43e3-8be0-c9f1f1ad584f",
            "resource": {
                "resourceType": "Observation",
                "id": "645a7cf0-03e2-43e3-8be0-c9f1f1ad584f"
            }
        },
        {
            "fullUrl": "https://api-satusehat-stg.dto.kemkes.go.id/fhir-r4/v1/Procedure/a5c0a8b2-e32e-43e5-bdaf-ac34de8f11dc",
            "resource": {
                "resourceType": "Procedure",
                "id": "a5c0a8b2-e32e-43e5-bdaf-ac34de8f11dc",
                "meta": {
                    "lastUpdated": "2025-08-06T08:53:33.862921+00:00",
                    "versionId": "MTc1NDQ3MDQxMzg2MjkyMTAwMA"
                },
                "identifier": [],
                "status": "completed",
                "category": {
                    "coding": [
                        {
                            "system": "http://snomed.info/sct",
                            "code": "103693007",
                            "display": "Diagnostic procedure"
                        }
                    ],
                    "text": "Prosedur Diagnostik"
                },
                "code": {
                    "coding": [
                        {
                            "system": "http://hl7.org/fhir/sid/icd-9-cm",
                            "code": "89.52",
                            "display": "Electrocardiogram"
                        }
                    ]
                },
                "subject": {
                    "reference": "Patient/P03647103112",
                    "display": "Claudia Sintia"
                },
                "encounter": {
                    "reference": "Encounter/654e2d68-d24e-4ab4-b51e-9eb9bd85192e"
                },
                "performedPeriod": {
                    "start": "2024-03-14T02:50:00+00:00",
                    "end": "2024-03-14T03:00:00+00:00"
                },
                "performer": [
                    {
                        "actor": {
                            "reference": "Practitioner/10009880728"
                        }
                    }
                ]
            }
        },
        {
            "fullUrl": "https://api-satusehat-stg.dto.kemkes.go.id/fhir-r4/v1/Specimen/951074fd-27a1-4444-9454-beeb4557bf88",
            "resource": {
                "resourceType": "Specimen",
                "id": "951074fd-27a1-4444-9454-beeb4557bf88",
                "meta": {
                    "lastUpdated": "2025-08-06T08:50:02.955751+00:00",
                    "versionId": "MTc1NDQ3MDIwMjk1NTc1MTAwMA"
                },
                "identifier": [
                    {
                        "system": "http://sys-ids.kemkes.go.id/specimen/6e3e3a13-8114-44b2-90b3-bbaeeeebf9f0",
                        "value": "0000001",
                        "assigner": {
                            "reference": "Organization/6e3e3a13-8114-44b2-90b3-bbaeeeebf9f0"
                        }
                    }
                ],
                "status": "available",
                "type": {
                    "coding": [
                        {
                            "system": "http://snomed.info/sct",
                            "code": "119297000",
                            "display": "Blood specimen"
                        }
                    ]
                },
                "subject": {
                    "reference": "Patient/P03647103112",
                    "display": "Claudia Sintia"
                },
                "receivedTime": "2024-03-14T02:33:00+00:00",
                "collection": {
                    "collectedDateTime": "2024-03-14T02:30:00+00:00",
                    "collector": {
                        "reference": "Practitioner/10009880728",
                        "display": "Dr. dr. Voight, MARS"
                    },
                    "quantity": {
                        "value": 6,
                        "unit": "mL"
                    },
                    "method": {
                        "coding": [
                            {
                                "system": "http://snomed.info/sct",
                                "code": "82078001",
                                "display": "Collection of blood specimen for laboratory"
                            }
                        ]
                    },
                    "fastingStatusCodeableConcept": {
                        "coding": [
                            {
                                "system": "http://terminology.hl7.org/CodeSystem/v2-0916",
                                "code": "F",
                                "display": "Patient was fasting prior to the procedure."
                            }
                        ]
                    }
                },
                "processing": [
                    {
                        "timeDateTime": "2024-03-14T02:34:00+00:00"
                    }
                ],
                "condition": [
                    {
                        "text": "Kondisi Spesimen Baik"
                    }
                ],
                "extension": [
                    {
                        "url": "https://fhir.kemkes.go.id/r4/StructureDefinition/TransportedTime",
                        "valueDateTime": "2024-03-14T02:32:00+00:00"
                    },
                    {
                        "url": "https://fhir.kemkes.go.id/r4/StructureDefinition/TransportedPerson",
                        "valueContactDetail": {
                            "name": "Burhan",
                            "telecom": [
                                {
                                    "system": "phone",
                                    "value": "021-5375162"
                                }
                            ]
                        }
                    },
                    {
                        "url": "https://fhir.kemkes.go.id/r4/StructureDefinition/ReceivedPerson",
                        "valueReference": {
                            "reference": "Practitioner/10009880728",
                            "display": "Dr. John Doe"
                        }
                    }
                ],
                "request": [
                    {
                        "reference": "ServiceRequest/047ceef5-f174-494b-b2b3-30df8760dc91"
                    }
                ]
            }
        },
        {
            "fullUrl": "https://api-satusehat-stg.dto.kemkes.go.id/fhir-r4/v1/DiagnosticReport/85a2f6d0-5c81-4c7b-b432-5ff962ec43fb",
            "resource": {
                "resourceType": "DiagnosticReport",
                "id": "85a2f6d0-5c81-4c7b-b432-5ff962ec43fb",
                "meta": {
                    "lastUpdated": "2025-08-07T01:57:01.733690+00:00",
                    "versionId": "MTc1NDUzMTgyMTczMzY5MDAwMA"
                },
                "identifier": [
                    {
                        "system": "http://sys-ids.kemkes.go.id/diagnostic/6e3e3a13-8114-44b2-90b3-bbaeeeebf9f0/lab",
                        "use": "official",
                        "value": "5234342"
                    }
                ],
                "status": "final",
                "category": [
                    {
                        "coding": [
                            {
                                "system": "http://terminology.hl7.org/CodeSystem/v2-0074",
                                "code": "CH",
                                "display": "Chemistry"
                            }
                        ]
                    }
                ],
                "code": {
                    "coding": [
                        {
                            "system": "http://loinc.org",
                            "code": "100898-6",
                            "display": "Lipid panel - Serum or Plasma"
                        }
                    ],
                    "text": "Pemeriksaan Profil Lipid"
                },
                "subject": {
                    "reference": "Patient/P03647103112"
                },
                "encounter": {
                    "reference": "Encounter/654e2d68-d24e-4ab4-b51e-9eb9bd85192e"
                },
                "effectiveDateTime": "2024-03-14T02:35:00+00:00",
                "issued": "2024-03-14T02:36:00+00:00",
                "performer": [
                    {
                        "reference": "Practitioner/10009880728"
                    },
                    {
                        "reference": "Organization/6e3e3a13-8114-44b2-90b3-bbaeeeebf9f0"
                    }
                ],
                "result": [
                    {
                        "reference": "Observation/09f7a794-3cec-4e87-94b4-9c5e90f0111c"
                    },
                    {
                        "reference": "Observation/3f2171ef-cf0c-4787-8857-65364dd60da2"
                    },
                    {
                        "reference": "Observation/114f1657-7e09-4a06-b5fa-18807c0fb9d2"
                    },
                    {
                        "reference": "Observation/6c209f0c-66db-4854-9276-bafa5225486c"
                    }
                ],
                "specimen": [
                    {
                        "reference": "Specimen/610d9335-e100-4de5-9bf1-837efc22c23f"
                    }
                ],
                "conclusion": "Hasil pemeriksaan profil lipid dengan rincian Kolesterol tinggi, Trigliserida tinggi, LDL tinggi, dan HDL rendah  menunjukkan adanya risiko terkena penyakit jantung"
            }
        },
        {
            "fullUrl": "https://api-satusehat-stg.dto.kemkes.go.id/fhir-r4/v1/ClinicalImpression/e5412363-b8f7-42db-9f45-5de4ee7f7936",
            "resource": {
                "resourceType": "ClinicalImpression",
                "id": "e5412363-b8f7-42db-9f45-5de4ee7f7936",
                "meta": {
                    "lastUpdated": "2025-08-07T01:59:15.675433+00:00",
                    "versionId": "MTc1NDUzMTk1NTY3NTQzMzAwMA"
                },
                "identifier": [
                    {
                        "system": "http://sys-ids.kemkes.go.id/clinicalimpression/6e3e3a13-8114-44b2-90b3-bbaeeeebf9f0",
                        "use": "official",
                        "value": "Prognosis_000123"
                    }
                ],
                "status": "completed",
                "description": "Ibu Claudia Sintia Terdiagnosis Hipertensi",
                "subject": {
                    "reference": "Patient/P03647103112",
                    "display": "Claudia Sintia"
                },
                "encounter": {
                    "reference": "Encounter/654e2d68-d24e-4ab4-b51e-9eb9bd85192e",
                    "display": "Kunjungan Claudia Sintia di hari Kamis, 14 Maret 2024"
                },
                "effectiveDateTime": "2024-03-14T03:15:00+00:00",
                "date": "2024-03-14T03:15:00+00:00",
                "assessor": {
                    "reference": "Practitioner/10009880728"
                },
                "problem": [
                    {
                        "reference": "Condition/1a08a280-b968-46e9-bf48-beae115c9ad4"
                    },
                    {
                        "reference": "Condition/3b82b38f-20a9-4253-a7a7-0673fe71d56a"
                    }
                ],
                "investigation": [
                    {
                        "code": {
                            "text": "Pemeriksaan Profil Lipid"
                        },
                        "item": [
                            {
                                "reference": "DiagnosticReport/85a2f6d0-5c81-4c7b-b432-5ff962ec43fb"
                            }
                        ]
                    },
                    {
                        "code": {
                            "text": "Elektrokardiogram"
                        },
                        "item": [
                            {
                                "reference": "Observation/8af8ae78-5526-4654-89ff-ec9dfcd24041"
                            }
                        ]
                    }
                ],
                "finding": [
                    {
                        "itemCodeableConcept": {
                            "coding": [
                                {
                                    "system": "http://hl7.org/fhir/sid/icd-10",
                                    "code": "I10",
                                    "display": "Essential (primary) hypertension"
                                }
                            ]
                        },
                        "itemReference": {
                            "reference": "Condition/1a08a280-b968-46e9-bf48-beae115c9ad4"
                        }
                    },
                    {
                        "itemCodeableConcept": {
                            "coding": [
                                {
                                    "system": "http://hl7.org/fhir/sid/icd-10",
                                    "code": "I25.9",
                                    "display": "Chronic ischaemic heart disease, unspecified"
                                }
                            ]
                        },
                        "itemReference": {
                            "reference": "Condition/3b82b38f-20a9-4253-a7a7-0673fe71d56a"
                        }
                    }
                ],
                "prognosisCodeableConcept": [
                    {
                        "coding": [
                            {
                                "system": "http://snomed.info/sct",
                                "code": "67334001",
                                "display": "Guarded prognosis"
                            }
                        ]
                    }
                ],
                "summary": "Prognosis Hipertensi dengan taerget organ damage berupa Penyakit Jantung Iskemik Kronis sehingga kecurigaan terhadap penyakit Jantung"
            }
        },
        {
            "fullUrl": "https://api-satusehat-stg.dto.kemkes.go.id/fhir-r4/v1/Medication/6b7d5850-b14a-4c77-80ae-31ed38e3206e",
            "resource": {
                "resourceType": "Medication",
                "id": "6b7d5850-b14a-4c77-80ae-31ed38e3206e",
                "meta": {
                    "lastUpdated": "2025-08-06T08:56:09.925002+00:00",
                    "versionId": "MTc1NDQ3MDU2OTkyNTAwMjAwMA",
                    "profile": [
                        "https://fhir.kemkes.go.id/r4/StructureDefinition/Medication"
                    ]
                },
                "status": "active",
                "identifier": [
                    {
                        "system": "http://sys-ids.kemkes.go.id/medication/6e3e3a13-8114-44b2-90b3-bbaeeeebf9f0",
                        "use": "official",
                        "value": "123456797"
                    }
                ],
                "code": {
                    "coding": [
                        {
                            "system": "http://sys-ids.kemkes.go.id/kfa",
                            "code": "93002126",
                            "display": "Amlodipine Besilate 5 mg Tablet (DEXA MEDICA)"
                        }
                    ]
                },
                "form": {
                    "coding": [
                        {
                            "system": "http://terminology.kemkes.go.id/CodeSystem/medication-form",
                            "code": "BS066",
                            "display": "Tablet"
                        }
                    ]
                },
                "manufacturer": {
                    "reference": "Organization/6e3e3a13-8114-44b2-90b3-bbaeeeebf9f0"
                },
                "batch": {
                    "lotNumber": "1625042B",
                    "expirationDate": "2025-07-22T14:27:00+00:00"
                },
                "ingredient": [
                    {
                        "isActive": true,
                        "itemCodeableConcept": {
                            "coding": [
                                {
                                    "system": "http://sys-ids.kemkes.go.id/kfa",
                                    "code": "91000397",
                                    "display": "AMLODIPINE"
                                }
                            ]
                        },
                        "strength": {
                            "numerator": {
                                "value": 5,
                                "system": "http://unitsofmeasure.org",
                                "code": "mg"
                            },
                            "denominator": {
                                "value": 1,
                                "unit": "TAB",
                                "system": "http://terminology.hl7.org/CodeSystem/v3-orderableDrugForm",
                                "code": "TAB"
                            }
                        }
                    }
                ],
                "extension": [
                    {
                        "url": "https://fhir.kemkes.go.id/r4/StructureDefinition/MedicationType",
                        "valueCodeableConcept": {
                            "coding": [
                                {
                                    "system": "http://terminology.kemkes.go.id/CodeSystem/medication-type",
                                    "code": "NC",
                                    "display": "Non-compound"
                                }
                            ]
                        }
                    }
                ]
            }
        },
        {
            "fullUrl": "https://api-satusehat-stg.dto.kemkes.go.id/fhir-r4/v1/MedicationRequest/7fc550c9-7211-4752-aa36-35e405f73609",
            "resource": {
                "resourceType": "MedicationRequest",
                "id": "7fc550c9-7211-4752-aa36-35e405f73609",
                "meta": {
                    "lastUpdated": "2025-08-06T09:01:37.849166+00:00",
                    "versionId": "MTc1NDQ3MDg5Nzg0OTE2NjAwMA"
                },
                "identifier": [
                    {
                        "system": "http://sys-ids.kemkes.go.id/prescription/6e3e3a13-8114-44b2-90b3-bbaeeeebf9f0",
                        "use": "official",
                        "value": "123456788"
                    },
                    {
                        "system": "http://sys-ids.kemkes.go.id/prescription-item/6e3e3a13-8114-44b2-90b3-bbaeeeebf9f0",
                        "use": "official",
                        "value": "123456788-1"
                    }
                ],
                "status": "completed",
                "intent": "order",
                "category": [
                    {
                        "coding": [
                            {
                                "system": "http://terminology.hl7.org/CodeSystem/medicationrequest-category",
                                "code": "outpatient",
                                "display": "Outpatient"
                            }
                        ]
                    }
                ],
                "priority": "routine",
                "medicationReference": {
                    "reference": "Medication/6b7d5850-b14a-4c77-80ae-31ed38e3206e",
                    "display": "Amlodipine Besilate 5 mg Tablet (DEXA MEDICA)"
                },
                "subject": {
                    "reference": "Patient/P03647103112",
                    "display": "Jane Smith"
                },
                "encounter": {
                    "reference": "Encounter/654e2d68-d24e-4ab4-b51e-9eb9bd85192e"
                },
                "authoredOn": "2024-03-14T03:10:10+00:00",
                "requester": {
                    "reference": "Practitioner/10009880728",
                    "display": "Dr. dr. Voight, MARS"
                },
                "dosageInstruction": [
                    {
                        "sequence": 1,
                        "text": "1 tablet per hari",
                        "patientInstruction": "1 tablet perhari, diminum setiap hari tanpa jeda selama 1 bulan",
                        "additionalInstruction": [
                            {
                                "text": "Diminum setiap hari"
                            }
                        ],
                        "timing": {
                            "repeat": {
                                "frequency": 1,
                                "period": 1,
                                "periodUnit": "d"
                            }
                        },
                        "route": {
                            "coding": [
                                {
                                    "system": "http://www.whocc.no/atc",
                                    "code": "O",
                                    "display": "Oral"
                                }
                            ]
                        },
                        "doseAndRate": [
                            {
                                "type": {
                                    "coding": [
                                        {
                                            "system": "http://terminology.hl7.org/CodeSystem/dose-rate-type",
                                            "code": "ordered",
                                            "display": "Ordered"
                                        }
                                    ]
                                },
                                "doseQuantity": {
                                    "value": 1,
                                    "unit": "TAB",
                                    "system": "http://terminology.hl7.org/CodeSystem/v3-orderableDrugForm",
                                    "code": "TAB"
                                }
                            }
                        ]
                    }
                ],
                "dispenseRequest": {
                    "validityPeriod": {
                        "start": "2024-03-14T03:10:00+00:00",
                        "end": "2024-03-15T03:10:00+00:00"
                    },
                    "numberOfRepeatsAllowed": 0,
                    "quantity": {
                        "value": 30,
                        "unit": "TAB",
                        "system": "http://terminology.hl7.org/CodeSystem/v3-orderableDrugForm",
                        "code": "TAB"
                    },
                    "expectedSupplyDuration": {
                        "value": 30,
                        "unit": "days",
                        "system": "http://unitsofmeasure.org",
                        "code": "d"
                    },
                    "dispenseInterval": {
                        "value": 1,
                        "unit": "days",
                        "system": "http://unitsofmeasure.org",
                        "code": "d"
                    },
                    "performer": {
                        "reference": "Organization/6e3e3a13-8114-44b2-90b3-bbaeeeebf9f0"
                    }
                },
                "courseOfTherapyType": {
                    "coding": [
                        {
                            "system": "http://terminology.hl7.org/CodeSystem/medicationrequest-course-of-therapy",
                            "code": "continuous",
                            "display": "Continuing long term therapy"
                        }
                    ]
                }
            }
        },
        {
            "fullUrl": "https://api-satusehat-stg.dto.kemkes.go.id/fhir-r4/v1/ServiceRequest/9ecbf409-9234-4dea-852e-4de22ed93ca9",
            "resource": {
                "resourceType": "ServiceRequest",
                "id": "9ecbf409-9234-4dea-852e-4de22ed93ca9",
                "meta": {
                    "lastUpdated": "2025-08-07T02:00:18.772760+00:00",
                    "versionId": "MTc1NDUzMjAxODc3Mjc2MDAwMA"
                },
                "identifier": [
                    {
                        "system": "http://sys-ids.kemkes.go.id/servicerequest/6e3e3a13-8114-44b2-90b3-bbaeeeebf9f0",
                        "value": "000015"
                    }
                ],
                "status": "active",
                "intent": "original-order",
                "priority": "stat",
                "code": {
                    "coding": [
                        {
                            "system": "http://snomed.info/sct",
                            "code": "737492002",
                            "display": "Outpatient care management"
                        }
                    ],
                    "text": "Rujukan untuk pemeriksan lebih lanjut terkait adanya kemungkinan penyakit jantung"
                },
                "subject": {
                    "reference": "Patient/P03647103112"
                },
                "encounter": {
                    "reference": "Encounter/654e2d68-d24e-4ab4-b51e-9eb9bd85192e"
                },
                "occurrenceDateTime": "2024-03-14T03:15:00+00:00",
                "performer": [
                    {
                        "reference": "Practitioner/10009880728",
                        "display": "Dr. Alexander"
                    }
                ],
                "requester": {
                    "reference": "Practitioner/10009880728",
                    "display": "Dr. Alexander"
                },
                "category": [
                    {
                        "coding": [
                            {
                                "system": "http://snomed.info/sct",
                                "code": "3457005",
                                "display": "Patient referral"
                            }
                        ]
                    }
                ],
                "locationCode": [
                    {
                        "coding": [
                            {
                                "system": "http://terminology.hl7.org/CodeSystem/v3-RoleCode",
                                "code": "HOSP",
                                "display": "Hospital"
                            }
                        ]
                    }
                ],
                "patientInstruction": "Rujukan ke RS SATUEHSET. Dalam keadaan darurat dapat menghubungi hotline RS di nomor 1500567",
                "reasonCode": [
                    {
                        "coding": [
                            {
                                "system": "http://hl7.org/fhir/sid/icd-10",
                                "code": "I10",
                                "display": "Essential (primary) hypertension"
                            }
                        ],
                        "text": "Hipertensi"
                    }
                ]
            }
        }
    ]
}